{
  "entry": [
    {
      "request": {
        "method": "PUT",
        "url": "MessageHeader/01010101-0101-4101-8101-010101010101"
      },
      "resource": {
        "eventCoding": {
          "code": "O11",
          "display": "RDE^O11^",
          "system": "http://terminology.hl7.org/CodeSystem/v2-0003"
        },
        "id": "01010101-0101-4101-8101-010101010101",
        "meta": {
          "security": [
            {
              "code": "1"
            }
          ],
          "tag": [
            {
              "system": "http://terminology.hl7.org/CodeSystem/v2-0103"
            },
            {
              "system": "http://terminology.hl7.org/CodeSystem/v2-0207"
            }
          ]
        },
        "resourceType": "MessageHeader",
        "source": {
          "endpoint": "unknown"
        }
      }
    },
    {
      "request": {
        "method": "PUT",
        "url": "Patient/02020202-0202-4202-8202-020202020202"
      },
      "resource": {
        "active": true,
        "gender": "male",
        "id": "02020202-0202-4202-8202-020202020202",
        "identifier": [
          {
            "type": {
              "coding": [
                {
                  "code": "EPI"
                }
              ]
            },
            "value": "101105"
          },
          {
            "system": "http://hl7.org/fhir/sid/us-ssn",
            "type": {
              "coding": [
                {
                  "code": "SB",
                  "system": "http://terminology.hl7.org/CodeSystem/v2-0203"
                }
              ]
            }
          },
          {
            "type": {
              "coding": [
                {
                  "code": "DL",
                  "system": "http://terminology.hl7.org/CodeSystem/v2-0203"
                }
              ]
            }
          }
        ],
        "multipleBirthBoolean": false,
        "name": [
          {
            "family": "JONES",
            "given": [
              "ANDREW"
            ]
          }
        ],
        "resourceType": "Patient"
      }
    },
    {
      "request": {
        "method": "PUT",
        "url": "Account/03030303-0303-4303-8303-030303030303"
      },
      "resource": {
        "id": "03030303-0303-4303-8303-030303030303",
        "identifier": [
          {
            "value": "10000829306"
          }
        ],
        "resourceType": "Account",
        "status": "active",
        "subject": [
          {
            "reference": "Patient/02020202-0202-4202-8202-020202020202"
          }
        ]
      }
    },
    {
      "request": {
        "method": "PUT",
        "url": "Location/07070707-0707-4707-8707-070707070707"
      },
      "resource": {
        "id": "07070707-0707-4707-8707-070707070707",
        "mode": "instance",
        "partOf": {
          "reference": "Location/05050505-0505-4505-8505-050505050505"
        },
        "physicalType": {
          "coding": [
            {
              "code": "si",
              "system": "http://terminology.hl7.org/CodeSystem/location-physical-type"
            }
          ]
        },
        "resourceType": "Location"
      }
    },
    {
      "request": {
        "method": "PUT",
        "url": "Location/08080808-0808-4808-8808-080808080808"
      },
      "resource": {
        "id": "08080808-0808-4808-8808-080808080808",
        "mode": "instance",
        "partOf": {
          "reference": "Location/07070707-0707-4707-8707-070707070707"
        },
        "physicalType": {
          "coding": [
            {
              "code": "ro",
              "system": "http://terminology.hl7.org/CodeSystem/location-physical-type"
            }
          ]
        },
        "resourceType": "Location"
      }
    },
    {
      "request": {
        "method": "PUT",
        "url": "Location/09090909-0909-4909-8909-090909090909"
      },
      "resource": {
        "id": "09090909-0909-4909-8909-090909090909",
        "mode": "instance",
        "partOf": {
          "reference": "Location/08080808-0808-4808-8808-080808080808"
        },
        "physicalType": {
          "coding": [
            {
              "code": "bd",
              "system": "http://terminology.hl7.org/CodeSystem/location-physical-type"
            }
          ]
        },
        "resourceType": "Location"
      }
    },
    {
      "request": {
        "method": "PUT",
        "url": "Location/04040404-0404-4404-8404-040404040404"
      },
      "resource": {
        "id": "04040404-0404-4404-8404-040404040404",
        "mode": "instance",
        "name": "DrSmith",
        "physicalType": {
          "coding": [
            {
              "code": "si",
              "system": "http://terminology.hl7.org/CodeSystem/location-physical-type"
            }
          ]
        },
        "resourceType": "Location"
      }
    },
    {
      "request": {
        "method": "PUT",
        "url": "Location/05050505-0505-4505-8505-050505050505"
      },
      "resource": {
        "id": "05050505-0505-4505-8505-050505050505",
        "mode": "instance",
        "name": "Building1",
        "partOf": {
          "reference": "Location/04040404-0404-4404-8404-040404040404"
        },
        "physicalType": {
          "coding": [
            {
              "code": "bu",
              "system": "http://terminology.hl7.org/CodeSystem/location-physical-type"
            }
          ]
        },
        "resourceType": "Location"
      }
    },
    {
      "request": {
        "method": "PUT",
        "url": "Location/06060606-0606-4606-8606-060606060606"
      },
      "resource": {
        "id": "06060606-0606-4606-8606-060606060606",
        "mode": "instance",
        "partOf": {
          "reference": "Location/05050505-0505-4505-8505-050505050505"
        },
        "physicalType": {
          "coding": [
            {
              "code": "lvl",
              "system": "http://terminology.hl7.org/CodeSystem/location-physical-type"
            }
          ]
        },
        "resourceType": "Location"
      }
    },
    {
      "request": {
        "method": "PUT",
        "url": "EpisodeOfCare/0a0a0a0a-0a0a-4a0a-8a0a-0a0a0a0a0a0a"
      },
      "resource": {
        "id": "0a0a0a0a-0a0a-4a0a-8a0a-0a0a0a0a0a0a",
        "patient": {
          "reference": "Patient/02020202-0202-4202-8202-020202020202"
        },
        "resourceType": "EpisodeOfCare",
        "status": "finished"
      }
    },
    {
      "request": {
        "method": "PUT",
        "url": "Encounter/0b0b0b0b-0b0b-4b0b-8b0b-0b0b0b0b0b0b"
      },
      "resource": {
        "class": {
          "code": "AMB"
        },
        "episodeOfCare": [
          {
            "reference": "EpisodeOfCare/0a0a0a0a-0a0a-4a0a-8a0a-0a0a0a0a0a0a"
          }
        ],
        "id": "0b0b0b0b-0b0b-4b0b-8b0b-0b0b0b0b0b0b",
        "identifier": [
          {
            "type": {
              "coding": [
                {
                  "code": "VN",
                  "system": "http://terminology.hl7.org/CodeSystem/v2-0203"
                }
              ],
              "text": "visit number"
            }
          }
        ],
        "location": [
          {
            "location": {
              "reference": "Location/07070707-0707-4707-8707-070707070707"
            },
            "status": "active"
          },
          {
            "location": {
              "reference": "Location/08080808-0808-4808-8808-080808080808"
            },
            "status": "active"
          },
          {
            "location": {
              "reference": "Location/09090909-0909-4909-8909-090909090909"
            },
            "status": "active"
          },
          {
            "location": {
              "reference": "Location/04040404-0404-4404-8404-040404040404"
            },
            "status": "active"
          },
          {
            "location": {
              "reference": "Location/05050505-0505-4505-8505-050505050505"
            },
            "status": "active"
          },
          {
            "location": {
              "reference": "Location/06060606-0606-4606-8606-060606060606"
            },
            "status": "active"
          }
        ],
        "resourceType": "Encounter",
        "status": "finished",
        "subject": {
          "reference": "Patient/02020202-0202-4202-8202-020202020202"
        }
      }
    },
    {
      "request": {
        "method": "PUT",
        "url": "AllergyIntolerance/0c0c0c0c-0c0c-4c0c-8c0c-0c0c0c0c0c0c"
      },
      "resource": {
        "category": [
          "food"
        ],
        "clinicalStatus": {
          "coding": [
            {
              "code": "active",
              "system": "http://terminology.hl7.org/CodeSystem/allergyintolerance-clinical"
            }
          ]
        },
        "code": {
          "coding": [
            {
              "code": "59037007",
              "display": "Drug intolerance (disorder)",
              "system": "SNM3"
            }
          ]
        },
        "id": "0c0c0c0c-0c0c-4c0c-8c0c-0c0c0c0c0c0c",
        "onsetDateTime": "2019-10-20T16:01:03+10:00",
        "patient": {
          "reference": "Patient/02020202-0202-4202-8202-020202020202"
        },
        "reaction": [
          {
            "manifestation": [
              {
                "text": "Place Holder"
              }
            ],
            "severity": "moderate"
          }
        ],
        "resourceType": "AllergyIntolerance",
        "type": "allergy"
      }
    },
    {
      "request": {
        "method": "PUT",
        "url": "AllergyIntolerance/0d0d0d0d-0d0d-4d0d-8d0d-0d0d0d0d0d0d"
      },
      "resource": {
        "category": [
          "medication"
        ],
        "clinicalStatus": {
          "coding": [
            {
              "code": "active",
              "system": "http://terminology.hl7.org/CodeSystem/allergyintolerance-clinical"
            }
          ]
        },
        "code": {
          "coding": [
            {
              "code": "419199007",
              "display": "Allergy to substance (disorder)",
              "system": "SNM3"
            }
          ]
        },
        "id": "0d0d0d0d-0d0d-4d0d-8d0d-0d0d0d0d0d0d",
        "onsetDateTime": "2019-06-04T16:01:03+06:00",
        "patient": {
          "reference": "Patient/02020202-0202-4202-8202-020202020202"
        },
        "reaction": [
          {
            "manifestation": [
              {
                "text": "Place Holder"
              }
            ],
            "severity": "severe"
          }
        ],
        "resourceType": "AllergyIntolerance",
        "type": "allergy"
      }
    },
    {
      "request": {
        "method": "PUT",
        "url": "AllergyIntolerance/0e0e0e0e-0e0e-4e0e-8e0e-0e0e0e0e0e0e"
      },
      "resource": {
        "category": [
          "medication"
        ],
        "clinicalStatus": {
          "coding": [
            {
              "code": "active",
              "system": "http://terminology.hl7.org/CodeSystem/allergyintolerance-clinical"
            }
          ]
        },
        "code": {
          "coding": [
            {
              "code": "235719002",
              "display": "Food intolerance (disorder)",
              "system": "SNM3"
            }
          ]
        },
        "id": "0e0e0e0e-0e0e-4e0e-8e0e-0e0e0e0e0e0e",
        "onsetDateTime": "2020-05-06T16:01:03+05:00",
        "patient": {
          "reference": "Patient/02020202-0202-4202-8202-020202020202"
        },
        "reaction": [
          {
            "manifestation": [
              {
                "text": "Place Holder"
              }
            ],
            "severity": "severe"
          }
        ],
        "resourceType": "AllergyIntolerance",
        "type": "allergy"
      }
    },
    {
      "request": {
        "method": "PUT",
        "url": "Observation/0f0f0f0f-0f0f-4f0f-8f0f-0f0f0f0f0f0f"
      },
      "resource": {
        "code": {
          "coding": [
            {
              "code": "99199.Z56",
              "display": "Specimen Source"
            }
          ]
        },
        "id": "0f0f0f0f-0f0f-4f0f-8f0f-0f0f0f0f0f0f",
        "resourceType": "Observation",
        "status": "final",
        "subject": {
          "reference": "Patient/02020202-0202-4202-8202-020202020202"
        },
        "valueString": "AOE Value"
      }
    }
  ],
  "identifier": {
    "value": "5339"
  },
  "resourceType": "Bundle",
  "timestamp": "2016-04-05T17:04:52.5445Z",
  "type": "transaction"
}
